#      year    tas (K) 
 1601  286.885 
 1602  286.931 
 1603  286.864 
 1604  286.838 
 1605  286.895 
 1606  287.009 
 1607  287.024 
 1608  287.033 
 1609  286.838 
 1610  286.919 
 1611  286.965 
 1612  286.934 
 1613  286.867 
 1614  286.934 
 1615  286.895 
 1616   287.01 
 1617  286.971 
 1618  286.882 
 1619  286.902 
 1620  287.049 
 1621   286.86 
 1622  286.821 
 1623  286.979 
 1624  286.945 
 1625  286.892 
 1626  286.895 
 1627  286.959 
 1628  286.955 
 1629  286.784 
 1630  286.895 
 1631  286.986 
 1632  286.953 
 1633  286.855 
 1634  287.001 
 1635  286.996 
 1636  286.982 
 1637  287.024 
 1638  286.962 
 1639   286.89 
 1640  286.754 
 1641  286.927 
 1642  286.947 
 1643  286.904 
 1644  286.871 
 1645  286.929 
 1646  286.971 
 1647  286.943 
 1648  286.949 
 1649  286.951 
 1650  286.982 
 1651  286.978 
 1652  286.971 
 1653  287.011 
 1654  286.972 
 1655  287.004 
 1656  286.967 
 1657  287.057 
 1658  287.097 
 1659  287.074 
 1660  286.996 
 1661  287.112 
 1662  287.166 
 1663  287.071 
 1664  286.858 
 1665  287.038 
 1666  287.106 
 1667   287.01 
 1668  286.972 
 1669  287.088 
 1670  287.086 
 1671   287.05 
 1672  286.915 
 1673  286.899 
 1674  286.973 
 1675  287.042 
 1676  286.966 
 1677  286.896 
 1678   286.93 
 1679    286.9 
 1680  286.878 
 1681  286.875 
 1682  286.874 
 1683  286.892 
 1684   287.07 
 1685  286.861 
 1686  286.744 
 1687  286.909 
 1688  286.967 
 1689   286.97 
 1690  286.945 
 1691  286.993 
 1692  286.945 
 1693  286.915 
 1694  286.848 
 1695  286.862 
 1696  286.811 
 1697  286.758 
 1698  286.751 
 1699  286.884 
 1700  286.946 
 1701  286.899 
 1702  286.769 
 1703   286.84 
 1704  286.968 
 1705   286.91 
 1706  286.803 
 1707   286.86 
 1708  286.832 
 1709  286.868 
 1710  286.845 
 1711  286.897 
 1712  286.815 
 1713   286.79 
 1714  286.842 
 1715  286.879 
 1716    286.8 
 1717  286.848 
 1718  286.954 
 1719  286.957 
 1720  286.833 
 1721  286.824 
 1722  286.917 
 1723  286.748 
 1724  286.758 
 1725  286.785 
 1726  286.964 
 1727  287.029 
 1728  286.819 
 1729  286.794 
 1730  286.905 
 1731  286.983 
 1732  286.884 
 1733   286.99 
 1734  287.144 
 1735  286.975 
 1736  286.813 
 1737  286.964 
 1738  287.065 
 1739  286.983 
 1740  286.946 
 1741  286.863 
 1742  286.954 
 1743  287.009 
 1744  286.805 
 1745   286.81 
 1746  286.758 
 1747  286.768 
 1748  286.787 
 1749  286.803 
 1750  286.706 
 1751  286.785 
 1752  286.897 
 1753  286.832 
 1754  286.762 
 1755  286.721 
 1756  286.585 
 1757  286.833 
 1758   286.85 
 1759  286.849 
 1760  286.752 
 1761  286.667 
 1762  286.711 
 1763  286.922 
 1764   286.83 
 1765  286.782 
 1766  286.726 
 1767  286.861 
 1768   287.02 
 1769  286.987 
 1770  286.968 
 1771  286.915 
 1772  286.943 
 1773  287.107 
 1774  286.964 
 1775  286.811 
 1776   286.77 
 1777  286.852 
 1778  286.822 
 1779  286.703 
 1780   286.65 
 1781  286.743 
 1782  286.871 
 1783  286.774 
 1784  286.763 
 1785  286.745 
 1786  286.717 
 1787  286.731 
 1788  286.699 
 1789  286.909 
 1790  287.039 
 1791  286.921 
 1792  286.957 
 1793  286.934 
 1794  286.727 
 1795  286.748 
 1796  286.822 
 1797  286.742 
 1798  286.806 
 1799  286.964 
 1800  286.958 
 1801  286.776 
 1802  286.836 
 1803  286.704 
 1804  286.881 
 1805  286.863 
 1806  286.904 
 1807  286.814 
 1808  286.952 
 1809  286.902 
 1810  287.027 
 1811   286.96 
 1812  286.852 
 1813  286.894 
 1814  286.959 
 1815  287.026 
 1816  286.974 
 1817  286.927 
 1818  286.984 
 1819  286.977 
 1820  286.933 
 1821  286.991 
 1822   286.94 
 1823   286.91 
 1824  286.965 
 1825  286.992 
 1826  286.911 
 1827   287.03 
 1828  286.846 
 1829  286.838 
 1830  286.921 
 1831  286.937 
 1832  286.894 
 1833  287.042 
 1834  287.092 
 1835   287.02 
 1836  286.913 
 1837  286.909 
 1838  287.004 
 1839  287.136 
 1840  287.104 
 1841  287.142 
 1842  287.133 
 1843  287.063 
 1844   287.04 
 1845  287.081 
 1846  287.083 
 1847  286.988 
 1848  286.913 
 1849  287.017 
 1850  286.954 
 1851  287.101 
 1852  287.039 
 1853   287.12 
 1854  287.157 
 1855  287.082 
 1856  286.994 
 1857  286.899 
 1858  287.127 
 1859  287.093 
 1860  287.124 
 1861   287.31 
 1862  287.308 
 1863  287.112 
 1864  287.102 
 1865  287.234 
 1866  287.175 
 1867  286.985 
 1868  286.915 
 1869  287.064 
 1870   287.09 
 1871  286.892 
 1872  286.938 
 1873  287.121 
 1874  287.202 
 1875  287.109 
 1876   286.98 
 1877  287.168 
 1878  287.199 
 1879    287.2 
 1880  287.184 
 1881  287.147 
 1882  287.212 
 1883  287.297 
 1884  287.145 
 1885  287.049 
 1886  287.112 
 1887  287.167 
 1888  287.178 
 1889  287.036 
 1890  287.057 
 1891  287.065 
 1892   286.99 
 1893  287.075 
 1894  287.032 
 1895  286.958 
 1896   286.81 
 1897  286.922 
 1898  287.094 
 1899  287.135 
 1900  286.855 
 1901  286.866 
 1902  286.922 
 1903  287.022 
 1904  286.844 
 1905  286.789 
 1906  286.948 
 1907  286.857 
 1908  286.907 
 1909  286.875 
 1910  286.956 
 1911  286.889 
 1912  286.801 
 1913  286.864 
 1914   287.01 
 1915  286.854 
 1916  286.923 
 1917  287.035 
 1918  286.948 
 1919  286.927 
 1920  286.939 
 1921  286.982 
 1922   286.96 
 1923  287.054 
 1924  287.077 
 1925  287.048 
 1926  286.951 
 1927  286.828 
 1928  286.943 
 1929  287.112 
 1930  287.018 
 1931   286.95 
 1932  287.003 
 1933      287 
 1934  286.948 
 1935  287.002 
 1936  286.948 
 1937  286.887 
 1938  286.988 
 1939  287.092 
 1940  286.991 
 1941  286.878 
 1942  286.845 
 1943   286.96 
 1944      287 
 1945  287.038 
 1946  286.917 
 1947   286.84 
 1948   286.97 
 1949  287.098 
 1950  286.977 
 1951  287.004 
 1952  287.121 
 1953  286.928 
 1954  286.992 
 1955  286.904 
 1956  287.013 
 1957  287.104 
 1958  286.949 
 1959  286.929 
 1960   286.98 
 1961   286.87 
 1962  286.878 
 1963  287.012 
 1964  287.055 
 1965  287.048 
 1966  287.051 
 1967  287.194 
 1968  287.106 
 1969  287.091 
 1970  286.979 
 1971  287.115 
 1972  287.026 
 1973  286.988 
 1974  286.963 
 1975  287.061 
 1976  287.065 
 1977  287.067 
 1978  287.064 
 1979  286.853 
 1980  286.785 
 1981  286.799 
 1982  286.918 
 1983  286.881 
 1984  286.872 
 1985  286.909 
 1986   287.04 
 1987  287.096 
 1988  287.146 
 1989  286.873 
 1990  286.874 
 1991  286.961 
 1992   287.01 
 1993   287.06 
 1994   287.01 
 1995  287.032 
 1996  286.971 
 1997  286.952 
 1998  286.932 
 1999  287.077 
 2000  286.709 
 2001  286.614 
 2002   286.69 
 2003  286.888 
 2004  286.999 
 2005  286.685 
 2006  286.722 
 2007  286.977 
 2008  286.966 
 2009  286.873 
 2010  286.984 
 2011  287.027 
 2012  286.905 
 2013  287.021 
 2014  287.004 
 2015    286.8 
 2016  286.854 
 2017  287.015 
 2018  286.905 
 2019  286.904 
 2020  286.793 
 2021  286.913 
 2022  286.963 
 2023  287.107 
 2024  287.009 
 2025  286.957 
 2026  286.976 
 2027  286.942 
 2028  286.989 
 2029  287.145 
 2030  287.097 
 2031  286.908 
 2032  286.913 
 2033  287.065 
 2034   286.98 
 2035  287.016 
 2036  287.076 
 2037   287.05 
 2038  287.012 
 2039  287.031 
 2040  286.982 
 2041  287.172 
 2042  287.229 
 2043  287.066 
 2044  287.023 
 2045  287.174 
 2046  287.224 
 2047  287.211 
 2048  287.077 
 2049  287.045 
 2050  287.123 
 2051  287.127 
 2052  287.233 
 2053  287.028 
 2054  286.992 
 2055  287.178 
 2056  287.187 
 2057  287.074 
 2058  287.054 
 2059  287.097 
 2060  287.115 
 2061  287.079 
 2062   287.08 
 2063  287.187 
 2064  287.142 
 2065  287.062 
 2066   286.99 
 2067  287.109 
 2068  287.238 
 2069  287.188 
 2070   287.05 
 2071  286.969 
 2072  287.077 
 2073  287.187 
 2074  287.307 
 2075  287.073 
 2076  286.978 
 2077  287.038 
 2078  287.052 
 2079  287.076 
 2080  286.969 
 2081  286.923 
 2082  287.056 
 2083   286.96 
 2084  286.818 
 2085  286.949 
 2086  287.004 
 2087  286.941 
 2088  286.967 
 2089  286.902 
 2090  286.838 
 2091  286.884 
 2092  286.789 
 2093  286.853 
 2094  286.694 
 2095   286.65 
 2096  286.851 
 2097  287.073 
 2098   286.83 
 2099  286.718 
 2100  286.805 
